Folder: removekalpha/ZnO_STD_Fendas

Note: README.md
# removekalpha
Rachinger method in Python

Here have file for test, this method

File: ZnO_STD_101_G.ASC
*TYPE		=  Raw
*CLASS		=  ASCII CLASS
*SAMPLE		=  ZnO_STD_101_G
*COMMENT	=  ZnO_STD_101_GROSSO
*FNAME		=  ZnO_STD_101_G.raw
*DATE		=  15-Aug-13 15:52

*GROUP_COUNT	=  1
*GONIO		=  Ultima IV, 285
*ATTACHMENT	=  Standard Att.
*ASC		=  0, 0, 0.000000, 0.000000
*I_MONOCHRO	=  CBO, 0.000000
*C_MONOCHRO	=  Fixed Monochro.(U4), 3.354
*SLIT_NAME	=  0, DivSlit
*SLIT_NAME	=  1, DivH.L.Slit
*SLIT_NAME	=  2, SctSlit
*SLIT_NAME	=  3, RecSlit
*SLIT_NAME	=  4, Monochro RS
*COUNTER	=  Scintillation counter, 0
*POS_FORMAT	=  0
*SCAN_AXIS	=  2theta/theta
*MEAS_MODE	=  FT
*TARGET		=  29
*XRAY_CHAR	=  K-ALPHA1
*WAVE_LENGTH1	=  1.54056
*WAVE_LENGTH2	=  1.5444
*THICKNESS	=  0, 0.000000
*MU		=  0, 0.000000
*SCAN_MODE	=  2theta/theta
*SPEED_DIM	=  sec./step(FT)
*XUNIT		=  deg.
*YUNIT		=  counts
*SCALE_MODE	=  1
*REP_COUNT	=  1
*SE_COUNT	=  0
*STD_MATERIAL	=  Unknown, Unknown, 0.000000, 0.000000, 0.000000, 0.000000, 0.000000, 0.000000
*LATT_CONS	=  0, Unknown, Unknown, 0.000000, 0.000000, 0.000000, 0.000000, 0.000000, 0.000000
*SEC_COUNT	=  1
*TSPEC_SIZE	=  0
*EXTRA_SIZE	=  0
*MEMO		=

*BEGIN
*GROUP		=  0
*START		=  35.2
*STOP		=  37.7
*STEP		=  0.02
*OFFSET		=  0.000000
*SPEED		=  5
*SLIT_SPEC	=  0, 2/3deg., 2.33, 10
*SLIT_SPEC	=  1, 10mm, 8, 10
*SLIT_SPEC	=  2, 2/3deg., 0.89, 20
*SLIT_SPEC	=  3, 0.6mm, 0.6, 20
*SLIT_SPEC	=  4, No Use, 0.000000, 20
*KV		=  40
*MA		=  30
*LOW		=  0.000000
*HIGH		=  0.000000
*CTEMPER	=  0, 0.000000
*CTEMPER	=  1, 0.000000
*CTEMPER	=  2, 0.000000
*PAREX		=  0, 0.000000
*PAREX		=  1, 0.000000
*PAREX		=  2, 0.000000
*PAREX		=  3, 0.000000
*PAREX		=  4, 0.000000
*PAREX		=  5, 0.000000
*PAREX		=  6, 0.000000
*PAREX		=  7, 0.000000
*PAREX		=  8, 0.000000
*PAREX		=  9, 0.000000
*PAREX		=  10, 0.000000
*PAREX		=  11, 0.000000
*PAREX		=  12, 0.000000
*PAREX		=  13, 0.000000
*PAREX		=  14, 0.000000
*PAREX		=  15, 0.000000
*FULL_SCALE	=  100
*INDEX		=  0, 0, 0
*COUNT		=  126
286, 304, 298, 289
298, 333, 304, 310
351, 347, 358, 393
372, 356, 373, 401
419, 409, 434, 458
475, 497, 497, 576
519, 588, 671, 672
762, 738, 850, 936
1034, 1131, 1369, 1524
1801, 2221, 2715, 3200
4121, 5243, 6574, 8392
10805, 14266, 19573, 26516
37270, 51448, 63893, 71228
69792, 62605, 54291, 47433
42887, 36237, 28062, 19409
12909, 8763, 6281, 4829
3820, 3050, 2457, 2063
1741, 1533, 1308, 1196
968, 847, 799, 779
689, 648, 586, 566
536, 475, 458, 426
376, 392, 359, 351
314, 320, 310, 300
260, 273, 265, 224
243, 234, 228, 184
219, 192, 174, 187
184, 183, 185, 177
166, 164, 162, 145
150, 181, 154, 151
160, 149, 148, 146
157, 140, 168, 163
157, 140
*END

*EOF

File: ZnO_STD_101_M.ASC
*TYPE		=  Raw
*CLASS		=  ASCII CLASS
*SAMPLE		=  ZnO_STD_101_M
*COMMENT	=  ZnO_STD_101_MÉDIO
*FNAME		=  ZnO_STD_101_M.raw
*DATE		=  16-Aug-13 17:28

*GROUP_COUNT	=  1
*GONIO		=  Ultima IV, 285
*ATTACHMENT	=  Standard Att.
*ASC		=  0, 0, 0.000000, 0.000000
*I_MONOCHRO	=  CBO, 0.000000
*C_MONOCHRO	=  Fixed Monochro.(U4), 3.354
*SLIT_NAME	=  0, DivSlit
*SLIT_NAME	=  1, DivH.L.Slit
*SLIT_NAME	=  2, SctSlit
*SLIT_NAME	=  3, RecSlit
*SLIT_NAME	=  4, Monochro RS
*COUNTER	=  Scintillation counter, 0
*POS_FORMAT	=  0
*SCAN_AXIS	=  2theta/theta
*MEAS_MODE	=  FT
*TARGET		=  29
*XRAY_CHAR	=  K-ALPHA1
*WAVE_LENGTH1	=  1.54056
*WAVE_LENGTH2	=  1.5444
*THICKNESS	=  0, 0.000000
*MU		=  0, 0.000000
*SCAN_MODE	=  2theta/theta
*SPEED_DIM	=  sec./step(FT)
*XUNIT		=  deg.
*YUNIT		=  counts
*SCALE_MODE	=  1
*REP_COUNT	=  1
*SE_COUNT	=  0
*STD_MATERIAL	=  Unknown, Unknown, 0.000000, 0.000000, 0.000000, 0.000000, 0.000000, 0.000000
*LATT_CONS	=  0, Unknown, Unknown, 0.000000, 0.000000, 0.000000, 0.000000, 0.000000, 0.000000
*SEC_COUNT	=  1
*TSPEC_SIZE	=  0
*EXTRA_SIZE	=  0
*MEMO		=

*BEGIN
*GROUP		=  0
*START		=  35.2
*STOP		=  37.7
*STEP		=  0.02
*OFFSET		=  0.000000
*SPEED		=  20
*SLIT_SPEC	=  0, 1/3deg., 1.16, 10
*SLIT_SPEC	=  1, 10mm, 8, 10
*SLIT_SPEC	=  2, 1/3deg., 0.45, 20
*SLIT_SPEC	=  3, 0.3mm, 0.3, 20
*SLIT_SPEC	=  4, No Use, 0.000000, 20
*KV		=  40
*MA		=  30
*LOW		=  0.000000
*HIGH		=  0.000000
*CTEMPER	=  0, 0.000000
*CTEMPER	=  1, 0.000000
*CTEMPER	=  2, 0.000000
*PAREX		=  0, 0.000000
*PAREX		=  1, 0.000000
*PAREX		=  2, 0.000000
*PAREX		=  3, 0.000000
*PAREX		=  4, 0.000000
*PAREX		=  5, 0.000000
*PAREX		=  6, 0.000000
*PAREX		=  7, 0.000000
*PAREX		=  8, 0.000000
*PAREX		=  9, 0.000000
*PAREX		=  10, 0.000000
*PAREX		=  11, 0.000000
*PAREX		=  12, 0.000000
*PAREX		=  13, 0.000000
*PAREX		=  14, 0.000000
*PAREX		=  15, 0.000000
*FULL_SCALE	=  100
*INDEX		=  0, 0, 0
*COUNT		=  126
267, 289, 287, 304
316, 321, 308, 333
322, 331, 361, 336
392, 389, 431, 425
412, 459, 448, 489
504, 523, 526, 594
655, 637, 712, 800
810, 895, 967, 1068
1124, 1288, 1501, 1772
2036, 2531, 2973, 3858
4735, 6120, 7573, 9370
11702, 15318, 20371, 28112
38907, 55991, 79869, 102240
106539, 89035, 68392, 61383
61380, 54351, 39370, 24172
15380, 10677, 7751, 6147
4842, 3821, 3284, 2558
2201, 1797, 1568, 1378
1218, 1061, 970, 861
783, 723, 696, 610
608, 574, 499, 486
481, 443, 431, 372
378, 344, 320, 341
282, 297, 300, 259
268, 273, 267, 237
227, 233, 216, 221
237, 233, 216, 221
206, 194, 215, 207
190, 212, 170, 187
174, 175, 174, 198
182, 165, 193, 181
188, 172
*END

*EOF

File: ZnO_STD_202_G.ASC
*TYPE		=  Raw
*CLASS		=  ASCII CLASS
*SAMPLE		=  ZnO_STD_202_G
*COMMENT	=  ZnO_STD_202_GROSSO
*FNAME		=  ZnO_STD_202_G.raw
*DATE		=  15-Aug-13 16:04

*GROUP_COUNT	=  1
*GONIO		=  Ultima IV, 285
*ATTACHMENT	=  Standard Att.
*ASC		=  0, 0, 0.000000, 0.000000
*I_MONOCHRO	=  CBO, 0.000000
*C_MONOCHRO	=  Fixed Monochro.(U4), 3.354
*SLIT_NAME	=  0, DivSlit
*SLIT_NAME	=  1, DivH.L.Slit
*SLIT_NAME	=  2, SctSlit
*SLIT_NAME	=  3, RecSlit
*SLIT_NAME	=  4, Monochro RS
*COUNTER	=  Scintillation counter, 0
*POS_FORMAT	=  0
*SCAN_AXIS	=  2theta/theta
*MEAS_MODE	=  FT
*TARGET		=  29
*XRAY_CHAR	=  K-ALPHA1
*WAVE_LENGTH1	=  1.54056
*WAVE_LENGTH2	=  1.5444
*THICKNESS	=  0, 0.000000
*MU		=  0, 0.000000
*SCAN_MODE	=  2theta/theta
*SPEED_DIM	=  sec./step(FT)
*XUNIT		=  deg.
*YUNIT		=  counts
*SCALE_MODE	=  1
*REP_COUNT	=  1
*SE_COUNT	=  0
*STD_MATERIAL	=  Unknown, Unknown, 0.000000, 0.000000, 0.000000, 0.000000, 0.000000, 0.000000
*LATT_CONS	=  0, Unknown, Unknown, 0.000000, 0.000000, 0.000000, 0.000000, 0.000000, 0.000000
*SEC_COUNT	=  1
*TSPEC_SIZE	=  0
*EXTRA_SIZE	=  0
*MEMO		=

*BEGIN
*GROUP		=  0
*START		=  75.8
*STOP		=  78.2
*STEP		=  0.02
*OFFSET		=  0.000000
*SPEED		=  30
*SLIT_SPEC	=  0, 2/3deg., 2.33, 10
*SLIT_SPEC	=  1, 10mm, 8, 10
*SLIT_SPEC	=  2, 2/3deg., 0.89, 20
*SLIT_SPEC	=  3, 0.6mm, 0.6, 20
*SLIT_SPEC	=  4, No Use, 0.000000, 20
*KV		=  40
*MA		=  30
*LOW		=  0.000000
*HIGH		=  0.000000
*CTEMPER	=  0, 0.000000
*CTEMPER	=  1, 0.000000
*CTEMPER	=  2, 0.000000
*PAREX		=  0, 0.000000
*PAREX		=  1, 0.000000
*PAREX		=  2, 0.000000
*PAREX		=  3, 0.000000
*PAREX		=  4, 0.000000
*PAREX		=  5, 0.000000
*PAREX		=  6, 0.000000
*PAREX		=  7, 0.000000
*PAREX		=  8, 0.000000
*PAREX		=  9, 0.000000
*PAREX		=  10, 0.000000
*PAREX		=  11, 0.000000
*PAREX		=  12, 0.000000
*PAREX		=  13, 0.000000
*PAREX		=  14, 0.000000
*PAREX		=  15, 0.000000
*FULL_SCALE	=  100
*INDEX		=  0, 0, 0
*COUNT		=  121
598, 623, 643, 574
583, 609, 601, 635
622, 660, 630, 654
667, 658, 625, 646
678, 672, 679, 666
711, 712, 636, 697
690, 740, 744, 777
788, 769, 802, 833
867, 955, 923, 993
1053, 1194, 1140, 1203
1280, 1355, 1507, 1624
1741, 1863, 2184, 2526
2887, 3367, 4146, 5023
6336, 7969, 10254, 11911
13353, 13362, 12125, 10803
8991, 7614, 6578, 6195
6169, 6536, 7159, 7576
7490, 7331, 6363, 5535
4332, 3638, 2947, 2451
2153, 1856, 1666, 1531
1341, 1287, 1141, 1076
1055, 964, 930, 914
847, 794, 741, 748
718, 735, 701, 727
691, 696, 662, 650
666, 607, 616, 642
679, 572, 575, 650
626, 630, 565, 648
560, 542, 601, 594
548, 526, 561, 559
574
*END

*EOF

File: ZnO_STD_202_M.ASC
*TYPE		=  Raw
*CLASS		=  ASCII CLASS
*SAMPLE		=  ZnO_STD_202_M
*COMMENT	=  ZnO_STD_202_MÉDIO
*FNAME		=  ZnO_STD_202_M.raw
*DATE		=  16-Aug-13 18:11

*GROUP_COUNT	=  1
*GONIO		=  Ultima IV, 285
*ATTACHMENT	=  Standard Att.
*ASC		=  0, 0, 0.000000, 0.000000
*I_MONOCHRO	=  CBO, 0.000000
*C_MONOCHRO	=  Fixed Monochro.(U4), 3.354
*SLIT_NAME	=  0, DivSlit
*SLIT_NAME	=  1, DivH.L.Slit
*SLIT_NAME	=  2, SctSlit
*SLIT_NAME	=  3, RecSlit
*SLIT_NAME	=  4, Monochro RS
*COUNTER	=  Scintillation counter, 0
*POS_FORMAT	=  0
*SCAN_AXIS	=  2theta/theta
*MEAS_MODE	=  FT
*TARGET		=  29
*XRAY_CHAR	=  K-ALPHA1
*WAVE_LENGTH1	=  1.54056
*WAVE_LENGTH2	=  1.5444
*THICKNESS	=  0, 0.000000
*MU		=  0, 0.000000
*SCAN_MODE	=  2theta/theta
*SPEED_DIM	=  sec./step(FT)
*XUNIT		=  deg.
*YUNIT		=  counts
*SCALE_MODE	=  1
*REP_COUNT	=  1
*SE_COUNT	=  0
*STD_MATERIAL	=  Unknown, Unknown, 0.000000, 0.000000, 0.000000, 0.000000, 0.000000, 0.000000
*LATT_CONS	=  0, Unknown, Unknown, 0.000000, 0.000000, 0.000000, 0.000000, 0.000000, 0.000000
*SEC_COUNT	=  1
*TSPEC_SIZE	=  0
*EXTRA_SIZE	=  0
*MEMO		=

*BEGIN
*GROUP		=  0
*START		=  75.8
*STOP		=  78.2
*STEP		=  0.02
*OFFSET		=  0.000000
*SPEED		=  120
*SLIT_SPEC	=  0, 1/3deg., 1.16, 10
*SLIT_SPEC	=  1, 10mm, 8, 10
*SLIT_SPEC	=  2, 1/3deg., 0.45, 20
*SLIT_SPEC	=  3, 0.3mm, 0.3, 20
*SLIT_SPEC	=  4, No Use, 0.000000, 20
*KV		=  40
*MA		=  30
*LOW		=  0.000000
*HIGH		=  0.000000
*CTEMPER	=  0, 0.000000
*CTEMPER	=  1, 0.000000
*CTEMPER	=  2, 0.000000
*PAREX		=  0, 0.000000
*PAREX		=  1, 0.000000
*PAREX		=  2, 0.000000
*PAREX		=  3, 0.000000
*PAREX		=  4, 0.000000
*PAREX		=  5, 0.000000
*PAREX		=  6, 0.000000
*PAREX		=  7, 0.000000
*PAREX		=  8, 0.000000
*PAREX		=  9, 0.000000
*PAREX		=  10, 0.000000
*PAREX		=  11, 0.000000
*PAREX		=  12, 0.000000
*PAREX		=  13, 0.000000
*PAREX		=  14, 0.000000
*PAREX		=  15, 0.000000
*FULL_SCALE	=  1000
*INDEX		=  0, 0, 0
*COUNT		=  121
773, 783, 813, 778
865, 790, 807, 832
801, 803, 812, 805
765, 761, 860, 884
815, 834, 863, 858
871, 836, 901, 929
890, 924, 957, 1029
974, 1001, 1070, 1071
1161, 1221, 1216, 1302
1393, 1435, 1502, 1603
1734, 1778, 1946, 1908
2163, 2411, 2838, 3093
3566, 4089, 4930, 6302
8099, 10365, 13693, 17675
20927, 21668, 20211, 16502
12883, 10459, 8685, 8088
8272, 8858, 10049, 11392
11977, 11354, 9842, 7589
5938, 4563, 3938, 3240
2813, 2422, 2111, 1924
1832, 1657, 1545, 1411
1384, 1266, 1245, 1087
1165, 1002, 1031, 981
966, 989, 955, 913
952, 898, 887, 819
817, 837, 828, 820
792, 770, 795, 809
758, 702, 811, 762
793, 749, 695, 714
746, 752, 708, 717
771
*END

*EOF

File: ZnO_STD_F.ASC
*TYPE		=  Raw
*CLASS		=  ASCII CLASS
*SAMPLE		=  ZnO_STD_F
*COMMENT	=  ZnO_STD_FINO
*FNAME		=  ZnO_STD_F.raw
*DATE		=  16-Aug-13 11:57

*GROUP_COUNT	=  1
*GONIO		=  Ultima IV, 285
*ATTACHMENT	=  Standard Att.
*ASC		=  0, 0, 0.000000, 0.000000
*I_MONOCHRO	=  CBO, 0.000000
*C_MONOCHRO	=  Fixed Monochro.(U4), 3.354
*SLIT_NAME	=  0, DivSlit
*SLIT_NAME	=  1, DivH.L.Slit
*SLIT_NAME	=  2, SctSlit
*SLIT_NAME	=  3, RecSlit
*SLIT_NAME	=  4, Monochro RS
*COUNTER	=  Scintillation counter, 0
*POS_FORMAT	=  0
*SCAN_AXIS	=  2theta/theta
*MEAS_MODE	=  FT
*TARGET		=  29
*XRAY_CHAR	=  K-ALPHA1
*WAVE_LENGTH1	=  1.54056
*WAVE_LENGTH2	=  1.5444
*THICKNESS	=  0, 0.000000
*MU		=  0, 0.000000
*SCAN_MODE	=  2theta/theta
*SPEED_DIM	=  sec./step(FT)
*XUNIT		=  deg.
*YUNIT		=  counts
*SCALE_MODE	=  1
*REP_COUNT	=  1
*SE_COUNT	=  0
*STD_MATERIAL	=  Unknown, Unknown, 0.000000, 0.000000, 0.000000, 0.000000, 0.000000, 0.000000
*LATT_CONS	=  0, Unknown, Unknown, 0.000000, 0.000000, 0.000000, 0.000000, 0.000000, 0.000000
*SEC_COUNT	=  1
*TSPEC_SIZE	=  0
*EXTRA_SIZE	=  0
*MEMO		=

*BEGIN
*GROUP		=  0
*START		=  27
*STOP		=  80
*STEP		=  0.02
*OFFSET		=  0.000000
*SPEED		=  7
*SLIT_SPEC	=  0, 1/6deg., 0.58, 10
*SLIT_SPEC	=  1, 10mm, 8, 10
*SLIT_SPEC	=  2, 1/6deg., 0.22, 20
*SLIT_SPEC	=  3, 0.15mm, 0.15, 20
*SLIT_SPEC	=  4, No Use, 0.000000, 20
*KV		=  40
*MA		=  30
*LOW		=  0.000000
*HIGH		=  0.000000
*CTEMPER	=  0, 0.000000
*CTEMPER	=  1, 0.000000
*CTEMPER	=  2, 0.000000
*PAREX		=  0, 0.000000
*PAREX		=  1, 0.000000
*PAREX		=  2, 0.000000
*PAREX		=  3, 0.000000
*PAREX		=  4, 0.000000
*PAREX		=  5, 0.000000
*PAREX		=  6, 0.000000
*PAREX		=  7, 0.000000
*PAREX		=  8, 0.000000
*PAREX		=  9, 0.000000
*PAREX		=  10, 0.000000
*PAREX		=  11, 0.000000
*PAREX		=  12, 0.000000
*PAREX		=  13, 0.000000
*PAREX		=  14, 0.000000
*PAREX		=  15, 0.000000
*FULL_SCALE	=  100
*INDEX		=  0, 0, 0
*COUNT		=  2651
13, 5, 9, 9
13, 10, 8, 12
10, 10, 16, 10
11, 10, 10, 14
6, 13, 15, 14
17, 14, 14, 10
16, 17, 9, 14
12, 14, 9, 11
22, 10, 13, 10
6, 16, 12, 16
17, 12, 9, 10
11, 15, 10, 12
7, 17, 18, 14
11, 10, 11, 13
12, 19, 16, 17
12, 17, 18, 19
26, 21, 19, 18
34, 32, 20, 24
65, 65, 69, 58
387, 548, 704, 962
4427, 5056, 5045, 3074
164, 121, 100, 76
34, 25, 25, 26
24, 27, 28, 29
18, 27, 13, 20
18, 23, 21, 17
16, 15, 15, 22
21, 16, 18, 29
19, 22, 25, 26
41, 48, 32, 48
202, 257, 410, 527
2412, 2460, 2761, 2027
124, 97, 98, 54
33, 46, 35, 38
22, 25, 33, 16
27, 26, 24, 41
52, 65, 68, 54
154, 154, 168, 195
1810, 2508, 3433, 4782
3424, 2060, 1344, 1005
136, 126, 112, 89
41, 51, 45, 28
20, 27, 18, 21
22, 23, 22, 17
18, 19, 17, 14
18, 18, 17, 21
20, 13, 18, 18
11, 21, 11, 15
18, 11, 18, 18
16, 9, 16, 11
16, 17, 14, 13
10, 12, 9, 21
10, 12, 16, 9
13, 17, 14, 14
16, 16, 10, 16
10, 12, 11, 12
15, 12, 11, 15
10, 8, 12, 11
6, 11, 15, 14
15, 6, 14, 7
11, 11, 12, 11
12, 16, 14, 26
14, 8, 18, 9
10, 13, 15, 14
14, 14, 15, 13
4, 9, 13, 22
13, 11, 18, 11
16, 12, 10, 14
12, 8, 15, 13
14, 19, 14, 13
10, 15, 14, 14
11, 9, 22, 9
21, 16, 18, 11
17, 8, 9, 8
10, 9, 13, 14
12, 19, 13, 15
10, 11, 16, 9
12, 19, 25, 14
24, 8, 15, 18
13, 22, 14, 15
18, 9, 15, 22
13, 21, 13, 19
20, 22, 15, 20
24, 18, 26, 20
54, 53, 73, 84
363, 522, 772, 1157
1249, 994, 720, 486
60, 55, 50, 61
22, 24, 17, 31
19, 15, 21, 15
7, 11, 9, 21
17, 20, 14, 11
8, 13, 15, 9
16, 16, 10, 15
7, 13, 14, 21
15, 16, 8, 13
11, 11, 14, 13
13, 11, 18, 14
12, 14, 12, 8
17, 20, 17, 13
15, 8, 11, 14
15, 16, 16, 14
25, 17, 13, 8
15, 22, 14, 14
9, 2, 9, 13
15, 11, 7, 13
17, 11, 8, 8
13, 18, 12, 12
17, 10, 9, 11
17, 13, 11, 9
18, 13, 19, 20
15, 12, 10, 13
15, 15, 15, 11
13, 19, 16, 12
13, 23, 16, 19
16, 12, 15, 16
8, 13, 10, 19
14, 13, 20, 34
19, 16, 22, 22
24, 23, 33, 23
34, 30, 36, 30
42, 46, 44, 45
125, 137, 160, 177
1573, 1972, 2370, 2299
959, 686, 513, 402
94, 87, 66, 70
45, 29, 32, 32
31, 19, 30, 18
29, 25, 24, 17
20, 13, 18, 14
20, 24, 13, 20
13, 9, 16, 15
19, 21, 20, 14
18, 25, 25, 21
12, 21, 20, 17
14, 13, 20, 27
14, 21, 16, 24
17, 12, 28, 16
23, 19, 13, 15
20, 17, 17, 21
19, 20, 15, 18
20, 13, 19, 16
22, 21, 15, 30
20, 22, 20, 27
21, 20, 30, 20
10, 28, 22, 30
32, 37, 28, 24
38, 42, 46, 41
113, 124, 127, 157
986, 1319, 1781, 2073
1311, 1193, 1012, 782
104, 89, 87, 81
42, 56, 39, 33
35, 28, 35, 24
31, 19, 16, 16
15, 19, 29, 29
20, 19, 20, 14
21, 22, 19, 25
16, 30, 17, 35
28, 28, 17, 16
23, 33, 12, 16
22, 25, 26, 23
32, 32, 23, 37
46, 60, 66, 84
698, 581, 396, 273
171, 102, 85, 76
43, 42, 39, 42
29, 29, 40, 36
54, 44, 44, 44
101, 95, 108, 128
463, 619, 868, 1154
877, 933, 1120, 1400
180, 169, 140, 134
70, 59, 46, 58
79, 74, 90, 111
591, 719, 839, 832
485, 430, 427, 338
85, 58, 62, 76
31, 25, 24, 30
21, 30, 23, 26
24, 19, 19, 28
19, 19, 13, 17
13, 13, 20, 17
13, 18, 10, 23
17, 12, 21, 17
10, 20, 13, 21
16, 22, 14, 18
16, 13, 17, 19
18, 19, 20, 21
25, 26, 40, 54
109, 97, 75, 96
45, 36, 37, 29
28, 24, 18, 19
11, 16, 8, 10
13, 7, 10, 18
15, 17, 14, 5
12, 20, 14, 14
14, 13, 13, 13
16, 11, 11, 12
16, 17, 16, 15
15, 19, 10, 19
9, 12, 18, 10
6, 15, 11, 21
14, 14, 13, 8
16, 17, 20, 11
20, 17, 21, 13
24, 24, 19, 23
33, 35, 41, 44
272, 302, 253, 248
169, 132, 131, 100
34, 33, 20, 29
21, 23, 9, 22
15, 12, 13, 10
18, 15, 17, 14
16, 8, 17, 14
13, 11, 8, 14
11, 10, 13, 10
11, 3, 11, 12
12, 15, 9, 16
10, 17, 16, 13
11, 11, 7, 12
16, 19, 14
*END

*EOF

File: ZnO_STD_G.ASC
*TYPE		=  Raw
*CLASS		=  ASCII CLASS
*SAMPLE		=  ZnO_STD_G
*COMMENT	=  ZnO_STD_GROSSO
*FNAME		=  ZnO_STD_G.raw
*DATE		=  15-Aug-13 17:06

*GROUP_COUNT	=  1
*GONIO		=  Ultima IV, 285
*ATTACHMENT	=  Standard Att.
*ASC		=  0, 0, 0.000000, 0.000000
*I_MONOCHRO	=  CBO, 0.000000
*C_MONOCHRO	=  Fixed Monochro.(U4), 3.354
*SLIT_NAME	=  0, DivSlit
*SLIT_NAME	=  1, DivH.L.Slit
*SLIT_NAME	=  2, SctSlit
*SLIT_NAME	=  3, RecSlit
*SLIT_NAME	=  4, Monochro RS
*COUNTER	=  Scintillation counter, 0
*POS_FORMAT	=  0
*SCAN_AXIS	=  2theta/theta
*MEAS_MODE	=  FT
*TARGET		=  29
*XRAY_CHAR	=  K-ALPHA1
*WAVE_LENGTH1	=  1.54056
*WAVE_LENGTH2	=  1.5444
*THICKNESS	=  0, 0.000000
*MU		=  0, 0.000000
*SCAN_MODE	=  2theta/theta
*SPEED_DIM	=  sec./step(FT)
*XUNIT		=  deg.
*YUNIT		=  counts
*SCALE_MODE	=  1
*REP_COUNT	=  1
*SE_COUNT	=  0
*STD_MATERIAL	=  Unknown, Unknown, 0.000000, 0.000000, 0.000000, 0.000000, 0.000000, 0.000000
*LATT_CONS	=  0, Unknown, Unknown, 0.000000, 0.000000, 0.000000, 0.000000, 0.000000, 0.000000
*SEC_COUNT	=  1
*TSPEC_SIZE	=  0
*EXTRA_SIZE	=  0
*MEMO		=

*BEGIN
*GROUP		=  0
*START		=  27
*STOP		=  80
*STEP		=  0.02
*OFFSET		=  0.000000
*SPEED		=  7
*SLIT_SPEC	=  0, 2/3deg., 2.33, 10
*SLIT_SPEC	=  1, 10mm, 8, 10
*SLIT_SPEC	=  2, 2/3deg., 0.89, 20
*SLIT_SPEC	=  3, 0.6mm, 0.6, 20
*SLIT_SPEC	=  4, No Use, 0.000000, 20
*KV		=  40
*MA		=  30
*LOW		=  0.000000
*HIGH		=  0.000000
*CTEMPER	=  0, 0.000000
*CTEMPER	=  1, 0.000000
*CTEMPER	=  2, 0.000000
*PAREX		=  0, 0.000000
*PAREX		=  1, 0.000000
*PAREX		=  2, 0.000000
*PAREX		=  3, 0.000000
*PAREX		=  4, 0.000000
*PAREX		=  5, 0.000000
*PAREX		=  6, 0.000000
*PAREX		=  7, 0.000000
*PAREX		=  8, 0.000000
*PAREX		=  9, 0.000000
*PAREX		=  10, 0.000000
*PAREX		=  11, 0.000000
*PAREX		=  12, 0.000000
*PAREX		=  13, 0.000000
*PAREX		=  14, 0.000000
*PAREX		=  15, 0.000000
*FULL_SCALE	=  100
*INDEX		=  0, 0, 0
*COUNT		=  2651
132, 146, 155, 144
171, 152, 145, 162
158, 136, 139, 158
141, 149, 145, 120
139, 145, 166, 141
150, 157, 156, 155
145, 154, 138, 150
157, 138, 171, 139
144, 158, 130, 142
144, 161, 175, 174
156, 174, 168, 155
158, 152, 156, 175
172, 170, 156, 168
165, 164, 183, 147
162, 165, 204, 140
216, 220, 208, 219
272, 273, 295, 298
404, 403, 410, 411
709, 748, 847, 997
5946, 7659, 10035, 13609
51640, 43968, 36678, 28190
1749, 1513, 1268, 1091
528, 434, 434, 415
314, 297, 301, 300
242, 233, 218, 231
221, 198, 232, 242
252, 229, 224, 244
273, 271, 256, 291
338, 324, 320, 361
463, 512, 542, 569
2851, 3674, 4809, 6303
29869, 25592, 22650, 19363
1301, 1063, 907, 806
446, 449, 428, 399
415, 371, 384, 388
504, 518, 502, 517
721, 735, 734, 823
1867, 2086, 2570, 3060
26859, 36920, 52003, 71584
39491, 27405, 17980, 12443
1833, 1639, 1323, 1247
653, 624, 558, 546
363, 318, 312, 293
260, 221, 249, 242
239, 215, 206, 223
178, 159, 176, 182
160, 184, 179, 185
150, 195, 203, 196
191, 180, 184, 202
180, 174, 165, 154
140, 154, 159, 152
156, 132, 162, 147
159, 141, 155, 137
158, 147, 164, 126
131, 138, 152, 150
140, 160, 136, 167
149, 154, 158, 155
131, 152, 140, 153
130, 148, 134, 137
142, 124, 128, 141
144, 152, 113, 148
136, 137, 116, 145
141, 137, 130, 155
148, 148, 133, 146
137, 153, 137, 154
156, 149, 119, 147
113, 160, 134, 138
159, 144, 126, 118
118, 119, 136, 142
146, 115, 135, 148
116, 135, 126, 143
148, 134, 150, 139
140, 146, 147, 124
126, 154, 163, 142
135, 152, 156, 162
135, 144, 118, 135
134, 140, 160, 166
159, 134, 133, 141
147, 139, 184, 143
155, 146, 128, 148
182, 175, 152, 181
187, 174, 181, 188
246, 226, 239, 220
291, 308, 314, 337
593, 710, 786, 957
5613, 7961, 11505, 16804
13986, 12694, 9959, 7181
835, 744, 673, 549
320, 267, 283, 272
232, 196, 187, 216
170, 183, 172, 158
172, 154, 164, 167
170, 140, 152, 160
158, 139, 162, 158
157, 138, 125, 145
135, 150, 151, 147
157, 147, 129, 144
160, 157, 156, 134
159, 145, 138, 117
152, 119, 151, 136
149, 146, 154, 153
130, 148, 128, 130
121, 156, 131, 128
136, 142, 141, 128
142, 128, 153, 153
151, 150, 136, 135
136, 165, 156, 160
110, 126, 140, 153
128, 147, 152, 153
156, 151, 175, 159
151, 174, 154, 150
164, 157, 182, 134
162, 157, 187, 171
166, 155, 133, 181
149, 131, 161, 167
163, 191, 157, 199
202, 214, 182, 187
226, 240, 237, 240
235, 216, 260, 268
281, 319, 291, 280
354, 343, 386, 378
606, 545, 618, 679
1710, 1951, 2291, 2576
22259, 26884, 28581, 27479
13038, 9986, 7457, 5585
1182, 1039, 928, 848
509, 452, 407, 432
332, 304, 321, 275
253, 258, 227, 290
201, 229, 221, 247
208, 204, 196, 225
184, 224, 212, 187
188, 201, 200, 192
190, 170, 170, 207
188, 177, 208, 182
185, 218, 196, 214
190, 212, 206, 224
173, 166, 180, 192
201, 195, 209, 171
193, 193, 191, 191
217, 194, 209, 208
217, 208, 234, 207
223, 216, 236, 223
263, 230, 241, 243
275, 288, 253, 269
277, 282, 292, 313
354, 403, 362, 346
495, 543, 561, 611
1322, 1528, 1780, 2003
13117, 17886, 22283, 25916
14794, 14740, 13111, 10421
1409, 1234, 1115, 1021
505, 497, 480, 469
352, 351, 333, 327
283, 305, 308, 256
252, 253, 238, 246
232, 220, 214, 241
221, 225, 200, 226
226, 231, 262, 215
223, 256, 225, 222
234, 252, 245, 221
246, 229, 257, 289
317, 312, 320, 323
616, 710, 772, 952
4664, 4200, 3561, 2906
1833, 1394, 1071, 878
408, 431, 418, 424
399, 377, 393, 386
529, 531, 553, 560
1098, 1132, 1319, 1435
6008, 7770, 10203, 13446
9824, 10261, 10808, 11187
2246, 1959, 1699, 1435
803, 740, 754, 729
962, 972, 1153, 1198
6868, 8446, 9371, 10013
5675, 5665, 5248, 4517
862, 792, 669, 653
387, 324, 344, 285
234, 256, 229, 245
228, 202, 213, 212
194, 205, 206, 201
181, 189, 170, 202
193, 183, 185, 180
179, 145, 176, 156
182, 170, 134, 168
163, 198, 177, 165
188, 181, 170, 188
204, 225, 217, 211
379, 466, 505, 615
1442, 1116, 938, 867
624, 470, 376, 328
217, 169, 162, 173
152, 159, 161, 156
147, 153, 138, 149
123, 131, 165, 134
138, 134, 147, 143
132, 118, 138, 103
136, 138, 121, 127
132, 140, 120, 136
136, 124, 127, 131
139, 131, 110, 136
149, 151, 125, 138
132, 136, 149, 125
132, 155, 170, 152
158, 157, 158, 158
200, 236, 224, 223
417, 426, 479, 563
3130, 3133, 2902, 2562
1816, 1726, 1484, 1309
295, 264, 264, 288
179, 179, 162, 144
139, 159, 135, 142
134, 135, 126, 119
113, 128, 105, 131
126, 124, 128, 117
108, 121, 131, 113
134, 120, 104, 127
92, 118, 135, 120
124, 107, 128, 99
123, 116, 149, 121
119, 131, 141
*END

*EOF