Folder: removekalpha/ZnO_STD_Fendas (part 2)

File: ZnO_STD_M.ASC
*TYPE		=  Raw
*CLASS		=  ASCII CLASS
*SAMPLE		=  ZnO_STD_M
*COMMENT	=  ZnO_STD_MÉDIO
*FNAME		=  ZnO_STD_M.raw
*DATE		=  16-Aug-13 22:14

*GROUP_COUNT	=  1
*GONIO		=  Ultima IV, 285
*ATTACHMENT	=  Standard Att.
*ASC		=  0, 0, 0.000000, 0.000000
*I_MONOCHRO	=  CBO, 0.000000
*C_MONOCHRO	=  Fixed Monochro.(U4), 3.354
*SLIT_NAME	=  0, DivSlit
*SLIT_NAME	=  1, DivH.L.Slit
*SLIT_NAME	=  2, SctSlit
*SLIT_NAME	=  3, RecSlit
*SLIT_NAME	=  4, Monochro RS
*COUNTER	=  Scintillation counter, 0
*POS_FORMAT	=  0
*SCAN_AXIS	=  2theta/theta
*MEAS_MODE	=  FT
*TARGET		=  29
*XRAY_CHAR	=  K-ALPHA1
*WAVE_LENGTH1	=  1.54056
*WAVE_LENGTH2	=  1.5444
*THICKNESS	=  0, 0.000000
*MU		=  0, 0.000000
*SCAN_MODE	=  2theta/theta
*SPEED_DIM	=  sec./step(FT)
*XUNIT		=  deg.
*YUNIT		=  counts
*SCALE_MODE	=  1
*REP_COUNT	=  1
*SE_COUNT	=  0
*STD_MATERIAL	=  Unknown, Unknown, 0.000000, 0.000000, 0.000000, 0.000000, 0.000000, 0.000000
*LATT_CONS	=  0, Unknown, Unknown, 0.000000, 0.000000, 0.000000, 0.000000, 0.000000, 0.000000
*SEC_COUNT	=  1
*TSPEC_SIZE	=  0
*EXTRA_SIZE	=  0
*MEMO		=

*BEGIN
*GROUP		=  0
*START		=  27
*STOP		=  80
*STEP		=  0.02
*OFFSET		=  0.000000
*SPEED		=  7
*SLIT_SPEC	=  0, 1/3deg., 1.16, 10
*SLIT_SPEC	=  1, 10mm, 8, 10
*SLIT_SPEC	=  2, 1/3deg., 0.45, 20
*SLIT_SPEC	=  3, 0.3mm, 0.3, 20
*SLIT_SPEC	=  4, No Use, 0.000000, 20
*KV		=  40
*MA		=  30
*LOW		=  0.000000
*HIGH		=  0.000000
*CTEMPER	=  0, 0.000000
*CTEMPER	=  1, 0.000000
*CTEMPER	=  2, 0.000000
*PAREX		=  0, 0.000000
*PAREX		=  1, 0.000000
*PAREX		=  2, 0.000000
*PAREX		=  3, 0.000000
*PAREX		=  4, 0.000000
*PAREX		=  5, 0.000000
*PAREX		=  6, 0.000000
*PAREX		=  7, 0.000000
*PAREX		=  8, 0.000000
*PAREX		=  9, 0.000000
*PAREX		=  10, 0.000000
*PAREX		=  11, 0.000000
*PAREX		=  12, 0.000000
*PAREX		=  13, 0.000000
*PAREX		=  14, 0.000000
*PAREX		=  15, 0.000000
*FULL_SCALE	=  1000
*INDEX		=  0, 0, 0
*COUNT		=  2651
47, 51, 33, 43
45, 35, 42, 42
40, 31, 41, 51
47, 44, 45, 34
42, 40, 37, 38
45, 44, 38, 43
35, 32, 33, 43
56, 33, 37, 41
47, 35, 52, 35
49, 44, 46, 40
49, 48, 52, 45
39, 42, 51, 43
56, 47, 48, 48
52, 45, 45, 42
47, 52, 55, 45
47, 63, 58, 54
63, 51, 66, 75
100, 99, 111, 118
199, 232, 238, 287
1598, 2229, 2913, 3830
16751, 15795, 13993, 10615
545, 452, 364, 317
177, 143, 136, 111
75, 86, 75, 73
65, 59, 79, 78
61, 61, 61, 66
71, 63, 62, 57
71, 81, 77, 91
90, 86, 98, 92
127, 140, 140, 177
849, 1133, 1498, 1988
10550, 8586, 8131, 7719
421, 339, 302, 268
117, 140, 131, 124
95, 114, 102, 97
125, 139, 137, 114
220, 217, 226, 256
567, 615, 685, 819
7015, 9854, 13584, 19191
14069, 8539, 5309, 3627
589, 466, 436, 365
162, 161, 137, 165
100, 99, 97, 75
69, 76, 60, 80
63, 81, 68, 78
74, 60, 54, 51
59, 46, 45, 45
64, 50, 61, 60
49, 62, 50, 58
53, 39, 58, 62
54, 43, 46, 50
56, 60, 47, 56
49, 54, 46, 47
45, 49, 52, 61
54, 41, 46, 50
42, 58, 43, 45
42, 53, 49, 43
46, 37, 41, 34
49, 37, 34, 49
46, 49, 36, 56
47, 50, 46, 44
50, 33, 46, 35
47, 57, 53, 52
40, 36, 40, 43
44, 51, 42, 50
47, 51, 40, 40
44, 30, 52, 53
40, 46, 46, 41
50, 29, 35, 46
41, 54, 39, 46
48, 50, 30, 45
39, 42, 47, 51
35, 45, 42, 44
41, 36, 58, 53
53, 55, 52, 52
47, 50, 47, 45
56, 43, 59, 45
50, 49, 31, 46
50, 43, 60, 49
49, 49, 37, 47
52, 41, 55, 50
44, 45, 61, 51
69, 72, 53, 74
83, 82, 70, 93
178, 211, 239, 284
1474, 2081, 3016, 4580
4740, 4103, 2923, 1976
242, 232, 185, 188
106, 91, 89, 83
64, 64, 64, 52
67, 67, 44, 49
46, 58, 53, 50
45, 47, 48, 42
37, 59, 41, 38
54, 39, 40, 51
42, 43, 58, 41
54, 54, 38, 40
51, 43, 46, 46
47, 64, 50, 46
44, 49, 52, 44
50, 39, 56, 49
52, 50, 52, 52
41, 51, 40, 46
63, 39, 46, 49
49, 52, 40, 44
51, 42, 50, 45
44, 41, 56, 64
47, 50, 53, 47
49, 38, 57, 55
45, 56, 51, 46
40, 52, 53, 44
56, 51, 51, 49
42, 40, 56, 61
60, 58, 50, 53
57, 40, 47, 39
53, 61, 47, 62
58, 65, 78, 55
73, 66, 54, 58
66, 70, 70, 67
79, 80, 94, 100
95, 105, 117, 109
160, 171, 180, 185
542, 571, 671, 751
6330, 7911, 8979, 9084
3942, 2966, 2163, 1644
351, 309, 275, 274
123, 141, 132, 117
105, 94, 89, 91
87, 70, 82, 82
87, 71, 64, 82
81, 67, 76, 65
71, 74, 56, 74
78, 43, 56, 48
54, 58, 56, 62
64, 69, 57, 59
64, 62, 67, 57
63, 63, 66, 66
73, 49, 57, 64
55, 58, 51, 73
77, 64, 64, 79
72, 59, 65, 58
67, 54, 62, 72
78, 76, 56, 63
86, 68, 62, 76
75, 97, 88, 67
102, 80, 99, 88
112, 114, 105, 115
170, 160, 163, 191
422, 519, 542, 636
3909, 5413, 7176, 8757
5126, 5078, 4437, 3366
447, 409, 355, 321
161, 163, 153, 140
97, 78, 131, 102
84, 93, 101, 79
62, 57, 59, 73
67, 66, 83, 46
85, 51, 70, 78
71, 73, 86, 72
88, 80, 71, 71
79, 79, 66, 84
84, 102, 77, 85
86, 103, 95, 124
177, 213, 239, 276
1886, 1623, 1318, 975
591, 409, 372, 273
128, 134, 138, 133
111, 116, 118, 120
173, 156, 174, 200
356, 377, 420, 447
1790, 2276, 3085, 4179
3060, 3427, 3935, 4209
731, 678, 529, 510
249, 237, 217, 220
312, 310, 374, 404
2188, 2791, 3361, 3823
2008, 2102, 1905, 1534
287, 251, 217, 195
132, 117, 80, 110
73, 87, 83, 77
84, 69, 70, 72
63, 63, 89, 54
51, 50, 63, 63
60, 37, 42, 55
58, 55, 50, 54
84, 59, 53, 53
50, 55, 57, 47
51, 63, 69, 57
62, 71, 82, 65
120, 149, 148, 181
600, 375, 342, 241
210, 139, 120, 111
63, 56, 53, 70
61, 54, 46, 55
50, 48, 46, 45
43, 40, 42, 42
37, 46, 44, 53
55, 50, 43, 32
51, 42, 43, 47
33, 40, 37, 47
42, 48, 43, 44
39, 34, 51, 47
41, 58, 35, 46
46, 46, 42, 45
47, 42, 50, 40
44, 38, 42, 39
79, 76, 66, 81
136, 130, 138, 173
1310, 1303, 1128, 922
708, 691, 590, 470
136, 90, 88, 72
68, 56, 54, 58
49, 47, 47, 35
34, 39, 42, 46
39, 46, 33, 37
34, 48, 51, 31
44, 29, 25, 41
38, 33, 36, 51
34, 34, 36, 43
37, 44, 36, 30
46, 31, 46, 46
42, 45, 53
*END

*EOF